Folder: Introduction-to-Python/SRC_files/py_figures/XRD_data (part 2)

File: SRC001-020_no_adj.txt
'y-axis saved as y
'x 11bmb_8032SRC001-020.xye SigmaYobs Ycalc Diff
0.5 879.262 39.0921 0 0
0.668736 725.287 35.5091 0 0
0.837472 603.054 32.204 0 0
1.006208 453.614 28.3831 0 0
1.174944 407.745 26.6215 0 0
1.34368 358.096 24.8068 0 0
1.512416 279.429 22.2007 0 0
1.681152 300.359 22.717 0 0
1.849888 293.856 22.5914 0 0
2.018623 225.839 18.0374 0 0
2.187359 207.601 17.1911 0 0
2.356095 206.875 17.3886 0 0
2.524831 208.929 17.1875 0 0
2.693567 214.745 17.538 0 0
2.862303 220.101 17.8732 0 0
3.031039 198.718 16.8657 0 0
3.199775 239.019 18.4634 0 0
3.368511 208.407 17.3019 0 0
3.537247 222.704 17.7492 226.423 -3.71894
3.705983 230.668 18.3791 222.024 8.64434
3.874719 252.623 18.9234 221.379 31.2446
4.043455 247.099 16.8003 232.897 14.2024
4.212191 282.151 18.1686 277.722 4.42954
4.380927 15328.387 132.919 9150 6178.391
4.549663 323.687 19.3808 365.946 -42.2587
4.718398 386.249 21.1369 464.379 -78.1302
4.887134 820.609 30.6603 480.196 340.413
5.05587 705.739 28.817 527.332 178.407
5.224606 549.324 25.1282 525.494 23.8299
5.393342 546.598 24.8527 554.325 -7.72606
5.562078 1342.72 39.6689 1376.05 -33.3374
5.730814 616.334 26.6086 578.943 37.391
5.89955 554.821 25.3652 567.074 -12.2521
6.068286 527.558 22.7313 555.424 -27.8657
6.237022 530.942 22.6543 540.704 -9.76203
6.405758 560.06 23.5969 554.029 6.03085
6.574494 494.454 21.958 508.515 -14.0603
6.74323 454.434 20.9315 462.879 -8.44503
6.911966 430.042 20.5083 432.208 -2.16579
7.080702 408.413 19.9425 405.452 2.96078
7.249438 388.913 19.522 381.845 7.06845
7.418173 465.654 21.3878 364.603 101.05
7.586909 421.996 20.1264 408.432 13.5643
7.755645 343.858 18.5201 324.9144 18.9432
7.924381 326.709 17.8491 309.526 17.1834
8.093117 305.978 16.1665 300.268 5.71072
8.261853 325.854 16.9805 305.33 20.5238
8.430589 448.43 19.6928 420.404 28.0255
8.599325 401.387 18.7283 462.126 -60.7388
8.768061 13330.649 108.129 10999.957 2330.69
8.936797 368.764 17.7602 397.811 -29.0469
9.105533 269.704 15.4053 296.529 -26.8258
9.274269 271.349 15.4042 257.386 13.9634
9.443005 268.445 15.0717 258.424 10.0206
9.611741 306.355 16.4434 433.377 -127.022
9.780477 309.615 16.2844 311.61 -1.995
9.949213 581.99 22.7043 668.974 -86.9841
10.1179 15949.5 110.229 14144.9 1804.52
10.2867 609.148 21.2852 468.434 140.714
10.45542 296.297 15.1459 320.675 -24.3785
10.6242 290.528 14.8503 249.484 41.0437
10.7929 241.941 13.3428 214.605 27.3366
10.9616 238.447 13.5126 217.238 21.2086
11.1304 370.141 16.697 291.572 78.5692
11.2991 230.123 13.1364 415.686 -185.563
11.4678 211.245 12.7517 209.292 1.95265
11.6366 208.679 12.4912 206.474 2.2049
11.8053 219.991 12.9134 207.648 12.3426
11.974 236.391 13.2977 228.327 8.06414
12.14278 234.15 12.4818 216.806 17.3438
12.3115 277.639 13.7727 216.775 60.864
12.4803 221.023 12.2426 228.936 -7.91268
12.649 341.118 15.2754 348.297 -7.178777
12.8177 300.956 14.34164 247.586 53.3698
12.9865 413.985 16.614 414.294 -0.309536
13.1552 815.404 23.8423 660.44 154.964
13.3239 410.014 16.7505 374.597 35.4175
13.4927 292.867 13.9803 241.692 51.175
13.6614 279.117 13.887 250.899 28.2182
13.8301 283.553 13.8245 275.628 7.92528
13.9989 466.613 17.8679 403.574 63.0385
14.1676 425.695 16.2698 487.366 -61.6714
14.3363 9059.87 74.3063 6797.05 2262.82
14.5051 950.004 24.4256 413.418 536.586
14.6738 290.478 13.3325 287.074 3.40405
14.8426 276.722 12.9301 273.339 3.38267
15.0113 514.002 17.8512 424.621 89.3813
15.18 263.1 12.6808 239.022 24.0782
15.3488 226.444 11.8591 258.991 -32.54692
15.5175 216.044 11.61 234.505 -18.4611
15.6862 226.862 11.7688 226.61 0.252477
15.85497 211.081 11.4337 226.062 -14.9813
16.0237 230.888 11.3973 231.86 -0.97234
16.1924 244.099 11.6815 244.231 -0.131827
16.3612 247.485 11.9109 250.873 -3.38803
16.5299 270.854 12.3411 279.287 -8.43292
16.69865 437.806 15.8142 464.756 -26.9504
16.8674 993.894 23.7421 1102.02 -108.13
17.0361 464.34 16.0206 302.474 161.866
17.2049 427.94 15.6852 329.538 98.4023
17.3736 328.924 13.679 324.023 4.90059
17.54233 3390.64 43.351 2181.71 1208.94
17.7111 351.157 14.13 360.424 -9.26653
17.8798 264.787 12.168 275.279 -10.4925
18.0485 263.148 12.2301 292.927 -29.7784
18.2173 269.897 12.3916 311.426 -41.5294
18.386 236.659 11.4769 251.161 -14.5029
18.5547 230.84 11.5302 241.725 -10.8851
18.7235 222.287 11.2071 249.575 -27.2877
18.8922 222.772 11.1482 235.245 -12.4734
19.061 225.808 11.3529 232.552 -6.74378
19.2297 259.598 12.0085 232.447 27.151
19.3984 234.8037 11.5339 278.371 -43.5669
19.5672 242.062 11.6673 246.283 -4.22118
19.7359 220.602 11.097 227.662 -7.05995
19.9046 208.732 10.9407 224.815 -16.0828
20.0734 243.315 11.685 260.68 -17.3646
20.2421 434.592 15.5446 512.174 -77.5818
20.4108 374.185 14.6378 345.342 28.8437
20.5796 283.319 12.5847 243.885 39.4332
20.7483 234.559 11.4931 233.638 0.92042
20.917 216.194 11.0657 237.559 -21.3652
21.0858 229.407 11.2851 244.801 -15.3935
21.25452 230.289 11.5639 233.936 -3.64718
21.4233 232.713 11.4799 236.635 -3.92186
21.592 244.888 11.7048 264.644 -19.7553
21.7607 238.621 11.6639 297.874 -59.2526
21.9295 289.898 12.7599 286.201 3.69697
22.0982 655.379 19.3851 721.472 -66.0933
22.2669 339.847 13.9202 353.431 -13.5844
22.4357 341.067 13.7673 319.591 21.4758
22.6044 468.851 16.3937 457.8 11.0516
22.7731 1709.88 31.0253 1490.63 219.248
22.94188 366.657 14.2426 331.409 35.2479
23.1106 327.845 13.6843 315.689 12.1555
23.2794 293.108 12.8612 276.191 16.9166
23.4481 233.642 11.4899 244.099 -10.4576
23.6168 228.946 11.3681 253.884 -24.9385
23.7856 242.002 11.5543 238.375 3.62669
23.9543 240.839 11.7625 237.366 3.47347
24.123 247.854 11.8071 254.538 -6.68483
24.2918 309.33 13.1327 287.647 21.6828
24.4605 239.712 11.6891 245.378 -5.66663
24.6292 243.335 11.6686 271.581 -28.246
24.798 349.863 14.0632 358.31 -8.44729
24.9667 939.151 23.1334 1062.92 -123.77
25.1354 307.258 13.0752 296.149 11.1089
25.3042 309.985 13.4157 289.057 20.928
25.4729 247.852 11.7901 258.549 -10.6972
25.6417 260.8469 12.0266 231.74 29.1065
25.8104 231.417 11.4713 225.353 6.06413
25.9791 234.357 11.4294 218.667 15.6909
26.1479 210.809 10.89935 222.929 -12.1199
26.3166 296.877 12.9606 281.528 15.3485
26.4853 458.835 16.017 633.333 -174.498
26.65407 235.01 11.603 238.626 -3.61655
26.8228 237.768 11.5816 215.924 21.8445
26.9915 214.869 10.9463 200.798 14.0711
27.1603 197.769 10.5578 200.758 -2.98918
27.329 260.073 12.1021 252.878 7.19521
27.49775 211.309 11.0072 204.679 6.6299
27.6665 186.175 10.2629 195.79 -9.61496
27.8352 197.832 10.4641 190.267 7.56546
28.004 186.891 10.8269 0 0
28.1727 177.77 10.3845 0 0
28.34143 208.371 11.2558 0 0
28.5102 177.391 10.4493 0 0
28.6789 203.406 11.1336 0 0
28.8476 404.775 15.8255 0 0
29.0164 220.912 11.6332 0 0
29.1851 244.184 12.14362 0 0
29.3538 207.376 11.3883 0 0
29.5226 207.754 11.262 0 0
29.6913 188.439 10.6278 0 0
29.8601 203.59 11.1469 0 0
30.0288 225.491 12.2501 0 0
30.1975 350.361 15.4577 0 0
30.3663 213.077 11.9977 0 0
30.535 268.618 13.3302 0 0
30.7037 506.437 18.6571 0 0
30.8725 228.303 12.3718 0 0
31.0412 237.942 12.616 0 0
31.2099 185.034 11.2952 0 0
31.3787 200.835 11.506 0 0
31.5474 190.687 11.412 0 0
31.7161 186.215 11.2857 0 0
31.8849 203.893 11.6155 0 0
32.05362 185.475 11.9017 0 0
32.2224 234.691 13.2231 0 0
32.3911 327.569 15.5845 0 0
32.5598 204.042 12.3097 0 0
32.7286 209.745 12.3957 0 0
32.8973 194.638 12.1327 0 0
33.066 202.022 12.346 0 0
33.2348 190.128 11.8137 0 0
33.4035 226.625 13.0611 0 0
33.5722 274.481 14.3309 0 0
33.74098 208.238 12.4005 0 0
33.9097 268.161 14.1743 0 0
34.0785 284.809 15.3392 0 0
34.2472 234.914 14.0366 0 0
34.4159 237.372 14.0313 0 0
34.5847 202.173 12.829 0 0
34.7534 199.231 13.0393 0 0
34.9221 221.603 13.5162 0 0
35.0909 232.281 13.7104 0 0
35.2596 207.908 13.316 0 0
35.4283 196.773 12.7075 0 0
35.5971 212.191 13.4069 0 0
35.7658 203.9222 12.9686 0 0
35.9345 210.874 13.1087 0 0
36.1033 197.426 13.6631 0 0
36.272 172.482 12.561 0 0
36.4408 191.163 13.2964 0 0
36.6095 196.71 13.5815 0 0
36.7782 203.45 13.6678 0 0
36.947 221.818 14.4103 0 0
37.1157 234.178 14.7359 0 0
37.2844 187.169 12.9689 0 0
37.45317 205.595 13.9372 0 0
37.6219 174.163 12.6482 0 0
37.7906 169.999 12.4309 0 0
37.9594 175.891 12.8058 0 0
38.1281 164.501 13.263 0 0
38.29685 174.061 13.8462 0 0
38.4656 285.774 17.7603 0 0
38.6343 216.151 15.2824 0 0
38.8031 187.954 14.4801 0 0
38.9718 175.813 13.8219 0 0
39.14053 152.097 12.8231 0 0
39.3093 182.612 14.2469 0 0
39.478 164.417 13.3377 0 0
39.6467 181.311 14.1083 0 0
39.8155 174.009 13.7988 0 0
39.9842 170.387 13.5434 0 0
40.1529 202.626 16.5882 0 0
40.3217 178.219 15.2445 0 0
40.4904 151.16 14.1359 0 0
40.6592 140.555 13.7806 0 0
40.8279 157.707 14.4574 0 0
40.9966 158.666 14.6195 0 0
41.1654 174.085 15.2273 0 0
41.3341 146.198 13.8422 0 0
41.5028 173.498 15.0828 0 0
41.6716 148.458 13.9614 0 0
41.8403 152.179 14.0069 0 0
42.009 177.362 16.9585 0 0
42.1778 150.805 15.3809 0 0
42.3465 178.897 16.8949 0 0
42.5152 175.329 16.6206 0 0
42.684 182.919 16.8354 0 0
42.85272 152.065 15.6285 0 0
43.0215 158.402 15.9424 0 0
43.1902 146.157 15.1699 0 0
43.3589 161.636 16.167 0 0
43.5277 168.451 16.1381 0 0
43.6964 158.438 15.9333 0 0
43.8651 176.764 16.7067 0 0
44.0339 162.906 18.8144 0 0
44.2026 166.153 19.3575 0 0
44.3713 155.986 18.583 0 0
44.54008 129.791 16.8019 0 0
44.7088 159.352 18.8858 0 0
44.8776 167.44 19.1826 0 0
45.0463 139.097 17.5882 0 0
45.215 165.385 19.053 0 0
45.3838 175.351 19.427 0 0
45.5525 155.895 18.6134 0 0
45.7212 159.244 18.7406 0 0
45.89 153.145 18.2347 0 0
46.0587 185.94 24.8172 0 0
46.2274 121.885 19.9087 0 0
46.3962 144.934 21.9702 0 0
46.5649 132.001 20.7938 0 0
46.7336 110.522 18.8771 0 0
46.9024 156.716 22.7085 0 0
47.0711 133.619 20.8913 0 0
47.2399 162.014 22.9963 0 0
47.4086 139.67 21.4091 0 0
47.5773 137.7567 21.1585 0 0
47.7461 186.944 24.8473 0 0
47.9148 162.952 22.9796 0 0
48.0835 159.696 32.3654 0 0
48.25227 140.421 31.1753 0 0
48.421 146.483 31.2398 0 0
48.5897 170.195 33.7289 0 0
48.7585 162.184 33.2021 0 0
48.9272 104.2 26.3774 0 0
49.09595 175.171 34.5628 0 0
49.2647 96.1543 24.9874 0 0
49.4334 105.362 26.2449 0 0
49.6022 164.836 33.4762 0 0
49.7709 82.9285 23.3372 0 0
49.93963 113.253 27.5887 0 0
49.9945 140.634 30.7237 0 0