Folder: Introduction-to-Python/SRC_files/py_figures/XRD_data

Note: SRC_files/readme
# py_figures
Python code for generating XRD, PDF, EIS, and CP figures.

Author: Sinclair R. Combs

Examples shown in Jupyter notebooks -- see examples folder.

-----------------------------------------------------------
Installation (Windows OS): 

To install using pip from Anaconda terminal (recommended):

```pip install git+https://github.com/Maughan-Lab/py_figures.git```

To install from git clone in Windows terminal:

1) Navigate to directory where you want to store the repo clone

  ```git clone https://github.com/Maughan-Lab/py_figures```
   
2) Navigate to py_figures directory
   
```python setup.py install```

-----------------------------------------------------------

File name conventions for echem data:

Experimental data file: filename_cycleN.txt

Fit: filename_cycleN_fit.txt

Fit parameters: filename_cycleN_params.txt

File: Li3ScCl6_hkl.txt
Energy = 26.968 keV
Radiation: xray
h k l TwoTheta Intensity
0 0 1 4.38 3629.01
0 2 0 4.77 1629.49
1 1 0 4.99 1647.92
1 1 -1 5.57 1303.02
0 2 1 6.48 1174.85
1 1 1 7.56 706.23
2 0 -1 8.36 993.99
1 3 0 8.40 997.54
1 1 -2 8.70 371.57
1 3 -1 8.76 12557.60
2 0 0 8.77 12556.81
0 0 2 8.77 12211.42
0 4 0 9.56 234.68
2 2 -1 9.63 218.61
2 2 0 9.99 422.76
0 2 2 9.99 463.79
2 0 -2 10.08 34533.09
1 3 1 10.15 34659.90
0 4 1 10.52 763.14
1 3 -2 11.02 133.01
2 0 1 11.06 133.99
2 2 -2 11.16 858.25
1 1 2 11.32 549.25

File: n1000_p0.txt
0.0 0.0
0.0100022 5.94147e-18
0.0200043 0.0
0.0300065 2.33937e-18
0.0400087 0.0
0.0500108 1.93737e-18
0.060013 0.0
0.0700152 2.0821e-18
0.0800173 3.37883e-18
0.0900195 0.0
0.100022 3.11665e-20
0.110024 0.0
0.120026 9.38452e-19
0.130028 0.0
0.14003 3.59396e-19
0.150033 0.0
0.160035 0.0
0.170037 3.02165e-18
0.180039 0.0
0.190041 3.58504e-18
0.200043 0.0
0.210046 3.06397e-19
0.220048 0.0
0.23005 0.0
0.240052 1.8779e-19
0.250054 0.0
0.260056 1.47022e-18
0.270059 0.0
0.280061 2.39391e-19
0.290063 0.0
0.300065 0.0
0.310067 4.74809e-19
0.320069 0.0
0.330072 2.13359e-19
0.340074 0.0
0.350076 3.51081e-19
0.360078 0.0
0.37008 9.78578e-18
0.380082 3.24704e-18
0.390085 0.0
0.400087 6.31182e-19
0.410089 0.0
0.420091 1.69102e-19
0.430093 0.0
0.440095 2.83695e-19
0.450098 0.0
0.4601 0.0
0.470102 1.62893e-20
0.480104 0.0
0.490106 3.36162e-19
0.500108 0.0
0.510111 1.7958e-19
0.520113 0.0
0.530115 0.0
0.540117 1.62127e-19
0.550119 0.0
0.560121 2.08547e-19
0.570124 4.19505e-21
0.580126 1.51811e-18
0.590128 6.28435e-21
0.60013 2.03678e-20
0.610132 9.41672e-19
0.620134 2.52631e-19
0.630137 8.25575e-19
0.640139 6.67297e-21
0.650141 3.18519e-19
0.660143 8.77645e-21
0.670145 3.90344e-19
0.680147 1.97682e-18
0.69015 1.74776e-20
0.700152 2.10763e-18
0.710154 8.04059e-20
0.720156 5.52832e-19
0.730158 2.60568e-19
0.74016 4.67204e-19
0.750163 6.10783e-20
0.760165 6.93367e-21
0.770167 8.45918e-19
0.780169 1.08668e-20
0.790171 1.08027e-18
0.800173 4.93244e-18
0.810176 1.08314e-19
0.820178 8.40063e-20
0.83018 0.0
0.840182 6.65736e-21
0.850184 0.0
0.860186 1.30403e-17
0.870189 1.47618e-20
0.880191 6.34747e-19
0.890193 3.00577e-19
0.900195 0.0
0.910197 2.16061e-19
0.920199 4.5629e-20
0.930202 3.46469e-18
0.940204 1.16695e-19
0.950206 2.43824e-18
0.960208 1.72148e-18
0.97021 1.00783e-19
0.980212 5.43877e-19
0.990215 3.40889e-19
1.00022 1.13394e-18
1.01022 1.44634e-19
1.02022 2.41602e-18
1.03022 1.40402e-19
1.04023 1.86616e-18
1.05023 6.62673e-18
1.06023 7.24554e-20
1.07023 1.98125e-17
1.08023 9.82466e-20
1.09024 6.25926e-19
1.10024 2.98126e-20
1.11024 1.07145e-18
1.12024 7.90941e-20
1.13024 4.86045e-19
1.14025 9.13132e-19
1.15025 1.81364e-18
1.16025 1.31671e-18
1.17025 6.87197e-19
1.18026 1.61737e-18
1.19026 5.85679e-18
1.20026 4.5474e-18
1.21026 1.88564e-18
1.22026 4.06908e-19
1.23027 7.96573e-18
1.24027 1.32383e-18
1.25027 5.37134e-19
1.26027 2.03163e-18
1.27028 1.25955e-18
1.28028 1.40531e-18
1.29028 1.80903e-18
1.30028 6.04893e-19
1.31028 1.17065e-18
1.32029 8.40194e-18
1.33029 2.29692e-18
1.34029 1.79953e-18
1.35029 2.08647e-18
1.36029 1.15416e-18
1.3703 2.15413e-19
1.3803 4.88755e-19
1.3903 1.57329e-18
1.4003 7.23625e-19
1.41031 4.04302e-18
1.42031 1.2202e-18
1.43031 1.07429e-18
1.44031 1.00461e-18
1.45031 1.28595e-18
1.46032 9.93403e-19
1.47032 1.62649e-18
1.48032 6.77689e-19
1.49032 6.99827e-19
1.50033 1.09621e-18
1.51033 9.73812e-19
1.52033 1.04343e-18
1.53033 9.83031e-19
1.54033 2.88029e-17
1.55034 5.43395e-18
1.56034 6.09488e-19
1.57034 1.36911e-18
1.58034 7.05478e-19
1.59034 1.8436e-19
1.60035 8.56652e-19
1.61035 9.61999e-19
1.62035 1.18156e-18
1.63035 4.02364e-19
1.64036 3.6252e-18
1.65036 1.55658e-18
1.66036 3.87349e-19
1.67036 4.97328e-19
1.68036 1.89987e-19
1.69037 4.47096e-19
1.70037 6.6268e-19
1.71037 1.28559e-18
1.72037 8.01037e-19
1.73038 7.05571e-19
1.74038 4.20223e-19
1.75038 1.55076e-18
1.76038 5.23494e-19
1.77038 5.046e-19
1.78039 4.05227e-18
1.79039 8.55197e-19
1.80039 4.76155e-18
1.81039 7.60205e-18
1.82039 1.72873e-18
1.8304 3.90719e-18
1.8404 1.04738e-18
1.8504 1.63111e-18
1.8604 1.78489e-18
1.87041 7.01554e-19
1.88041 1.61716e-18
1.89041 4.51696e-19
1.90041 2.20271e-18
1.91041 8.29624e-19
1.92042 7.46065e-18
1.93042 1.26716e-18
1.94042 1.14274e-18
1.95042 7.84045e-19
1.96042 4.62627e-18
1.97043 3.85259e-18
1.98043 1.78368e-18
1.99043 7.96313e-18
2.00043 3.23115e-18
2.01044 8.61995e-19
2.02044 1.24157e-18
2.03044 1.60062e-18
2.04044 2.61691e-18
2.05044 1.32727e-18
2.06045 9.2367e-18
2.07045 2.04313e-18
2.08045 1.31275e-16
2.09045 7.74191e-18
2.10046 2.5034e-18
2.11046 3.63555e-18
2.12046 9.23215e-18
2.13046 2.54417e-18
2.14046 1.44319e-18
2.15047 2.13565e-18
2.16047 2.56941e-18
2.17047 6.92385e-19
2.18047 1.17509e-18
2.19047 1.32247e-18
2.20048 3.82409e-18
2.21048 5.99148e-19
2.22048 2.13651e-18
2.23048 1.035e-18
2.24049 2.37342e-18
2.25049 2.28893e-18
2.26049 9.39798e-19
2.27049 6.53932e-18
2.28049 1.65758e-18
2.2905 1.17542e-18
2.3005 3.1658e-18
2.3105 8.73968e-19
2.3205 3.08478e-18
2.33051 2.68859e-18
2.34051 2.81701e-18
2.35051 2.27186e-18
2.36051 3.06358e-18
2.37051 4.61089e-18
2.38052 3.28093e+08
2.39052 3.64211e-18
2.40052 1.19659e+10
2.41052 7.46525e-18
2.42052 1.40159e-17
2.43053 3.2899e-18
2.44053 3.24582e-18
2.45053 3.76062e-18
2.46053 2.55212e-18
2.47054 1.64425e-18
2.48054 4.69184e-18
2.49054 6.06642e-18
2.50054 2.01331e-18
2.51054 1.56354e-17
2.52055 4.88154e-18
2.53055 1.95944e-17
2.54055 2.43974e-18
2.55055 2.72502e-18
2.56055 6.2616e-18
2.57056 3.41457e-18
2.58056 3.66057e-18
2.59056 4.13552e-18
2.60056 2.79407e-18
2.61057 2.81829e-18
2.62057 1.43516e-18
2.63057 6.35164e-18
2.64057 1.07959e-17
2.65057 3.31002e-17
2.66058 3.29226e-17
2.67058 2.38601e-18
2.68058 3.35012e-18
2.69058 3.72278e-18
2.70059 4.63018e-18
2.71059 5.63193e-18
2.72059 1.22758e-18
2.73059 2.65688e-18
2.74059 4.69341e-18
2.7506 2.66521e-18
2.7606 4.45159e-17
2.7706 1.97934e-18
2.7806 2.73595e-18
2.7906 2.13171e-18
2.80061 1.94567e-18
2.81061 4.66084e-18
2.82061 2.85692e-18
2.83061 3.03725e-18
2.84062 8.96958e-18
2.85062 2.92472e-18
2.85712 0.0

File: n1000_p10.txt
0.0 0.0
0.0100022 5.94147e-18
0.0200043 0.0
0.0300065 2.33937e-18
0.0400087 0.0
0.0500108 1.93737e-18
0.060013 0.0
0.0700152 2.0821e-18
0.0800173 3.37883e-18
0.0900195 0.0
0.100022 3.11665e-20
0.110024 0.0
0.120026 9.38452e-19
0.130028 0.0
0.14003 3.59396e-19
0.150033 0.0
0.160035 0.0
0.170037 3.02165e-18
0.180039 0.0
0.190041 3.58504e-18
0.200043 0.0
0.210046 3.06397e-19
0.220048 0.0
0.23005 0.0
0.240052 1.8779e-19
0.250054 0.0
0.260056 1.47022e-18
0.270059 0.0
0.280061 2.39391e-19
0.290063 0.0
0.300065 0.0
0.310067 4.74809e-19
0.320069 0.0
0.330072 2.13359e-19
0.340074 0.0
0.350076 3.51081e-19
0.360078 0.0
0.37008 9.78578e-18
0.380082 3.24704e-18
0.390085 0.0
0.400087 6.31182e-19
0.410089 0.0
0.420091 1.69102e-19
0.430093 0.0
0.440095 2.83695e-19
0.450098 0.0
0.4601 0.0
0.470102 1.62893e-20
0.480104 0.0
0.490106 3.36162e-19
0.500108 0.0
0.510111 1.7958e-19
0.520113 0.0
0.530115 0.0
0.540117 1.62127e-19
0.550119 0.0
0.560121 2.08547e-19
0.570124 8.3879e-21
0.580126 1.51431e-18
0.590128 6.11623e-21
0.60013 2.61758e-20
0.610132 9.44284e-19
0.620134 2.46516e-19
0.630137 1.05622e-18
0.640139 1.04247e-20
0.650141 3.9437e-19
0.660143 1.10174e-20
0.670145 4.44448e-19
0.680147 1.98109e-18
0.69015 3.38199e-20
0.700152 2.10763e-18
0.710154 1.33499e-19
0.720156 5.52832e-19
0.730158 2.20577e-19
0.74016 5.26802e-19
0.750163 2.85203e-19
0.760165 3.41875e-20
0.770167 8.69722e-19
0.780169 8.36423e-20
0.790171 1.08027e-18
0.800173 4.2278e-18
0.810176 1.37094e-19
0.820178 7.26975e-20
0.83018 0.0
0.840182 6.65736e-21
0.850184 0.0
0.860186 1.30184e-17
0.870189 1.96198e-20
0.880191 6.34747e-19
0.890193 3.88573e-19
0.900195 0.0
0.910197 6.56949e-19
0.920199 9.59183e-20
0.930202 3.11727e-18
0.940204 2.18492e-19
0.950206 1.44849e-18
0.960208 1.78053e-18
0.97021 3.07073e-19
0.980212 5.43877e-19
0.990215 3.40889e-19
1.00022 1.03327e-18
1.01022 1.44634e-19
1.02022 2.94237e-18
1.03022 1.40402e-19
1.04023 2.30648e-18
1.05023 6.62673e-18
1.06023 6.3874e-20
1.07023 1.97791e-17
1.08023 9.82466e-20
1.09024 6.25926e-19
1.10024 3.74323e-20
1.11024 1.03768e-18
1.12024 9.13572e-20
1.13024 4.86045e-19
1.14025 2.76109e+07
1.15025 1.07808e+07
1.16025 1.22213e+07
1.17025 1.16369e+07
1.18026 6.97355e+06
1.19026 7.20293e+06
1.20026 1.41154e+06
1.21026 2.51747e+06
1.22026 4.37375e+06
1.23027 2.1925e+06
1.24027 5.13543e+06
1.25027 3.57803e+06
1.26027 3.35855e+06
1.27028 4.87312e+06
1.28028 3.11142e+06
1.29028 6.87277e+06
1.30028 3.7568e+06
1.31028 972959
1.32029 2.91035e+06
1.33029 1.90424e+06
1.34029 4.50075e+06
1.35029 1.67904e+06
1.36029 1.9445e+06
1.3703 2.57269e+06
1.3803 2.17715e+06
1.3903 663901
1.4003 355718
1.41031 613826
1.42031 2.57193e+06
1.43031 2.209e+06
1.44031 877614
1.45031 349810
1.46032 175233
1.47032 683627
1.48032 397104
1.49032 1.83972e+06
1.50033 936890
1.51033 774019
1.52033 617267
1.53033 663308
1.54033 147770
1.55034 906628
1.56034 642515
1.57034 2.59135e+06
1.58034 1.76997e+06
1.59034 2.21352e+06
1.60035 715545
1.61035 549140
1.62035 332491
1.63035 118467
1.64036 1.11725e+06
1.65036 628204
1.66036 779816
1.67036 229816
1.68036 428427
1.69037 233798
1.70037 27094.6
1.71037 189846
1.72037 639988
1.73038 266632
1.74038 90337.6
1.75038 1.23653e+06
1.76038 398418
1.77038 346678
1.78039 484255
1.79039 332255
1.80039 486806
1.81039 258212
1.82039 489720
1.8304 54015.9
1.8404 790132
1.8504 1.03117e+06
1.8604 519898
1.87041 1.55813e+06
1.88041 398551
1.89041 759942
1.90041 88273.5
1.91041 934104
1.92042 639338
1.93042 25623.6
1.94042 160998
1.95042 460647
1.96042 149764
1.97043 213638
1.98043 270639
1.99043 303632
2.00043 449077
2.01044 0.0177427
2.02044 334453
2.03044 215696
2.04044 308979
2.05044 53917.1
2.06045 215835
2.07045 0.0238965
2.08045 353998
2.09045 78296.3
2.10046 212674
2.11046 513413
2.12046 50973.8
2.13046 254180
2.14046 386288
2.15047 6402.38
2.16047 57797.4
2.17047 649391
2.18047 226463
2.19047 4762.98
2.20048 124406
2.21048 0.0100588
2.22048 300557
2.23048 422179
2.24049 197216
2.25049 283405
2.26049 75640.3
2.27049 2.03986e+06
2.28049 1.12647e+06
2.2905 620525
2.3005 747650
2.3105 457120
2.3205 230287
2.33051 732220
2.34051 839033
2.35051 676779
2.36051 1.08322e+06
2.37051 285131
2.38052 2.30615e+08
2.39052 925991
2.40052 1.19665e+10
2.41052 700237
2.42052 682743
2.43053 426326
2.44053 326818
2.45053 599432
2.46053 383401
2.47054 634761
2.48054 487085
2.49054 227702
2.50054 787654
2.51054 191251
2.52055 1.10704e+06
2.53055 628095
2.54055 402979
2.55055 456077
2.56055 892822
2.57056 429852
2.58056 488317
2.59056 697729
2.60056 831432
2.61057 381546
2.62057 297926
2.63057 653398
2.64057 513916
2.65057 200522
2.66058 297708
2.67058 166910
2.68058 591324
2.69058 73413.2
2.70059 113555
2.71059 946857
2.72059 760683
2.73059 62883.3
2.74059 578263
2.7506 791594
2.7606 936094
2.7706 402728
2.7806 421892
2.7906 536508
2.80061 471943
2.81061 279033
2.82061 590271
2.83061 142343
2.84062 576462
2.85062 573267
2.85712 0.0

File: n1000_p20.txt
0.0 0.0
0.0100022 5.94147e-18
0.0200043 0.0
0.0300065 2.33937e-18
0.0400087 0.0
0.0500108 1.93737e-18
0.060013 0.0
0.0700152 2.0821e-18
0.0800173 3.37883e-18
0.0900195 0.0
0.100022 3.11665e-20
0.110024 0.0
0.120026 9.38452e-19
0.130028 0.0
0.14003 3.59396e-19
0.150033 0.0
0.160035 0.0
0.170037 3.02165e-18
0.180039 0.0
0.190041 3.58504e-18
0.200043 0.0
0.210046 3.06397e-19
0.220048 0.0
0.23005 0.0
0.240052 1.8779e-19
0.250054 0.0
0.260056 1.47022e-18
0.270059 0.0
0.280061 2.39391e-19
0.290063 0.0
0.300065 0.0
0.310067 4.74809e-19
0.320069 0.0
0.330072 2.13359e-19
0.340074 0.0
0.350076 3.51081e-19
0.360078 0.0
0.37008 9.78578e-18
0.380082 3.24704e-18
0.390085 0.0
0.400087 6.31182e-19
0.410089 0.0
0.420091 1.69102e-19
0.430093 0.0
0.440095 2.83695e-19
0.450098 0.0
0.4601 0.0
0.470102 1.62893e-20
0.480104 0.0
0.490106 3.36162e-19
0.500108 0.0
0.510111 1.7958e-19
0.520113 0.0
0.530115 0.0
0.540117 1.62127e-19
0.550119 0.0
0.560121 2.08547e-19
0.570124 1.15934e-20
0.580126 1.52164e-18
0.590128 7.78608e-21
0.60013 3.74053e-21
0.610132 9.87551e-19
0.620134 1.14182e-19
0.630137 1.03574e-18
0.640139 1.35354e-19
0.650141 3.28743e-19
0.660143 1.4497e-19
0.670145 4.67129e-19
0.680147 2.00596e-18
0.69015 5.30173e-20
0.700152 2.10763e-18
0.710154 3.52144e-19
0.720156 5.52832e-19
0.730158 1.51777e-19
0.74016 5.34925e-19
0.750163 7.56713e-20
0.760165 2.23859e-19
0.770167 1.02738e-18
0.780169 5.16889e-20
0.790171 1.08027e-18
0.800173 4.77369e-18
0.810176 1.16329e-19
0.820178 1.75171e-19
0.83018 0.0
0.840182 6.65736e-21
0.850184 0.0
0.860186 1.30299e-17
0.870189 5.97321e-20
0.880191 6.34747e-19
0.890193 3.38004e-19
0.900195 0.0
0.910197 2.38256e-19
0.920199 9.10807e-21
0.930202 3.11198e-18
0.940204 1.09573e-19
0.950206 1.85072e-18
0.960208 1.48793e-18
0.97021 1.26705e-19
0.980212 5.43877e-19
0.990215 3.40889e-19
1.00022 1.29026e-18
1.01022 1.44634e-19
1.02022 2.1113e-18
1.03022 1.40402e-19
1.04023 1.76971e-18
1.05023 6.62673e-18
1.06023 5.45184e-20
1.07023 1.98269e-17
1.08023 9.82466e-20
1.09024 6.25926e-19
1.10024 1.05113e-19
1.11024 1.27412e-18
1.12024 1.01747e-19
1.13024 4.86045e-19
1.14025 4.55453e+07
1.15025 2.35314e+07
1.16025 2.51497e+07
1.17025 3.13442e+07
1.18026 4.58924e+06
1.19026 1.64275e+07
1.20026 1.41562e+07
1.21026 6.28021e+06
1.22026 4.68836e+06
1.23027 6.1748e+06
1.24027 1.5116e+06
1.25027 3.79267e+06
1.26027 3.56232e+06
1.27028 8.57962e+06
1.28028 5.4912e+06
1.29028 5.47401e+06
1.30028 8.1802e+06
1.31028 1.5593e+07
1.32029 261170
1.33029 5.51332e+06
1.34029 3.97584e+06
1.35029 5.20726e+06
1.36029 1.79931e+06
1.3703 1.43649e+06
1.3803 896573
1.3903 2.60887e+06
1.4003 3.6542e+06
1.41031 2.79145e+06
1.42031 5.32615e+06
1.43031 4.99059e+06
1.44031 2.25802e+06
1.45031 2.14135e+06
1.46032 504686
1.47032 2.72387e+06
1.48032 482348
1.49032 4.52858e+06
1.50033 1.84612e+06
1.51033 881720
1.52033 1.50205e+06
1.53033 3.48718e+06
1.54033 493254
1.55034 854753
1.56034 3.05667e+06
1.57034 1.18705e+06
1.58034 770318
1.59034 430350
1.60035 810909
1.61035 1.64199e+06
1.62035 418207
1.63035 511560
1.64036 1.22036e+06
1.65036 952512
1.66036 176155
1.67036 762964
1.68036 264299
1.69037 111017
1.70037 128196
1.71037 638663
1.72037 2.64721e+06
1.73038 1.42103e+06
1.74038 324759
1.75038 1.10391e+06
1.76038 540255
1.77038 1.73464e+06
1.78039 614300
1.79039 782279
1.80039 1.92999e+06
1.81039 671641
1.82039 620576
1.8304 1.67998e+06
1.8404 243576
1.8504 774019
1.8604 292404
1.87041 581012
1.88041 1.39395e+06
1.89041 308023
1.90041 184797
1.91041 1.53857e+06
1.92042 1.09466e+06
1.93042 358805
1.94042 1.02066e+06
1.95042 1.13483e+06
1.96042 187860
1.97043 284550
1.98043 407387
1.99043 155323
2.00043 1.53676e+06
2.01044 0.0109779
2.02044 335311
2.03044 113685
2.04044 1.04123e+06
2.05044 340082
2.06045 887383
2.07045 0.0134885
2.08045 275134
2.09045 68255.8
2.10046 301258
2.11046 548523
2.12046 82132.4
2.13046 674687
2.14046 195123
2.15047 258169
2.16047 89606.8
2.17047 435909
2.18047 417764
2.19047 114.095
2.20048 5689.89
2.21048 0.0291322
2.22048 390976
2.23048 175181
2.24049 698760
2.25049 153040
2.26049 741023
2.27049 4.63019e+06
2.28049 1.43457e+06
2.2905 2.3721e+06
2.3005 1.67298e+06
2.3105 1.58933e+06
2.3205 732121
2.33051 998676
2.34051 1.24433e+06
2.35051 1.55834e+06
2.36051 733707
2.37051 1.54574e+06
2.38052 1.59386e+08
2.39052 1.79809e+06
2.40052 1.19663e+10
2.41052 587513
2.42052 1.00332e+06
2.43053 661529
2.44053 721560
2.45053 339229
2.46053 703000
2.47054 1.56021e+06
2.48054 1.14086e+06
2.49054 804886
2.50054 855356
2.51054 806491
2.52055 2.18099e+06
2.53055 878500
2.54055 387569
2.55055 801778
2.56055 1.35315e+06
2.57056 1.513e+06
2.58056 947380
2.59056 1.62597e+06
2.60056 419059
2.61057 929985
2.62057 1.41234e+06
2.63057 653769
2.64057 496166
2.65057 1.12662e+06
2.66058 1.29653e+06
2.67058 494008
2.68058 1.14647e+06
2.69058 814039
2.70059 867664
2.71059 441804
2.72059 622214
2.73059 210088
2.74059 1.49732e+06
2.7506 1.07182e+06
2.7606 1.3726e+06
2.7706 1.4784e+06
2.7806 810236
2.7906 952291
2.80061 921304
2.81061 1.01577e+06
2.82061 923494
2.83061 1.43766e+06
2.84062 474268
2.85062 702954
2.85712 0.0

File: n1000_p30.txt
0.0 0.0
0.0100022 5.94147e-18
0.0200043 0.0
0.0300065 2.33937e-18
0.0400087 0.0
0.0500108 1.93737e-18
0.060013 0.0
0.0700152 2.0821e-18
0.0800173 3.37883e-18
0.0900195 0.0
0.100022 3.11665e-20
0.110024 0.0
0.120026 9.38452e-19
0.130028 0.0
0.14003 3.59396e-19
0.150033 0.0
0.160035 0.0
0.170037 3.02165e-18
0.180039 0.0
0.190041 3.58504e-18
0.200043 0.0
0.210046 3.06397e-19
0.220048 0.0
0.23005 0.0
0.240052 1.8779e-19
0.250054 0.0
0.260056 1.47022e-18
0.270059 0.0
0.280061 2.39391e-19
0.290063 0.0
0.300065 0.0
0.310067 4.74809e-19
0.320069 0.0
0.330072 2.13359e-19
0.340074 0.0
0.350076 3.51081e-19
0.360078 0.0
0.37008 9.78578e-18
0.380082 3.24704e-18
0.390085 0.0
0.400087 6.31182e-19
0.410089 0.0
0.420091 1.69102e-19
0.430093 0.0
0.440095 2.83695e-19
0.450098 0.0
0.4601 0.0
0.470102 1.62893e-20
0.480104 0.0
0.490106 3.36162e-19
0.500108 0.0
0.510111 1.7958e-19
0.520113 0.0
0.530115 0.0
0.540117 1.62127e-19
0.550119 0.0
0.560121 2.08547e-19
0.570124 9.11843e-21
0.580126 1.51287e-18
0.590128 2.08278e-20
0.60013 1.18758e-19
0.610132 9.54709e-19
0.620134 2.55143e-19
0.630137 8.96563e-19
0.640139 2.32201e-20
0.650141 3.24167e-19
0.660143 1.87511e-19
0.670145 3.43905e-19
0.680147 1.949e-18
0.69015 7.29246e-20
0.700152 2.10763e-18
0.710154 2.42113e-20
0.720156 5.52832e-19
0.730158 6.74076e-20
0.74016 5.82511e-19
0.750163 6.93879e-20
0.760165 6.29075e-20
0.770167 8.72474e-19
0.780169 9.29658e-20
0.790171 1.08027e-18
0.800173 3.2384e-18
0.810176 1.87184e-19
0.820178 1.59455e-19
0.83018 0.0
0.840182 6.65736e-21
0.850184 0.0
0.860186 1.31192e-17
0.870189 6.33257e-20
0.880191 6.34747e-19
0.890193 6.22571e-20
0.900195 0.0
0.910197 2.49079e-19
0.920199 2.60903e-19
0.930202 3.36012e-18
0.940204 6.33311e-20
0.950206 1.15e-18
0.960208 1.22749e-18
0.97021 4.02292e-19
0.980212 5.43877e-19
0.990215 3.40889e-19
1.00022 1.21382e-18
1.01022 1.44634e-19
1.02022 2.28843e-18
1.03022 1.40402e-19
1.04023 1.52578e-18
1.05023 6.62673e-18
1.06023 1.17801e-19
1.07023 1.98956e-17
1.08023 9.82466e-20
1.09024 6.25926e-19
1.10024 6.59574e-20
1.11024 1.05277e-18
1.12024 1.46408e-19
1.13024 4.86045e-19
1.14025 4.17223e+07
1.15025 3.7728e+07
1.16025 3.65211e+07
1.17025 1.99205e+07
1.18026 1.55604e+07
1.19026 7.42961e+06
1.20026 1.18942e+07
1.21026 1.0804e+07
1.22026 7.05281e+06
1.23027 3.29193e+06
1.24027 6.50383e+06
1.25027 6.96173e+06
1.26027 6.81635e+06
1.27028 1.6447e+06
1.28028 9.38709e+06
1.29028 1.15622e+07
1.30028 4.65109e+06
1.31028 4.18428e+06
1.32029 3.10638e+06
1.33029 7.15476e+06
1.34029 5.23021e+06
1.35029 5.25901e+06
1.36029 2.13731e+06
1.3703 2.15942e+06
1.3803 1.02732e+06
1.3903 2.23243e+06
1.4003 1.04958e+06
1.41031 2.71806e+06
1.42031 1.46107e+06
1.43031 3.03587e+06
1.44031 2.66739e+06
1.45031 9.69938e+06
1.46032 694330
1.47032 1.66489e+06
1.48032 69208.9
1.49032 586061
1.50033 3.19348e+06
1.51033 1.43729e+06
1.52033 2.60544e+06
1.53033 4.18824e+06
1.54033 2.43452e+06
1.55034 2.3577e+06
1.56034 5.13559e+06
1.57034 1.47407e+06
1.58034 2.37475e+06
1.59034 7.80338e+06
1.60035 6.57142e+06
1.61035 3.44686e+06
1.62035 1.49262e+06
1.63035 3.79183e+06
1.64036 3.00451e+06
1.65036 136315
1.66036 564859
1.67036 1.52061e+06
1.68036 628148
1.69037 1.32042e+06
1.70037 211547
1.71037 1.01429e+06
1.72037 1.90869e+06
1.73038 1.69384e+06
1.74038 8312.88
1.75038 638889
1.76038 3.29513e+06
1.77038 1.83113e+06
1.78039 500532
1.79039 1.18192e+06
1.80039 525713
1.81039 668738
1.82039 766078
1.8304 602549
1.8404 2.76436e+06
1.8504 1.07641e+06
1.8604 240483
1.87041 208057
1.88041 567738
1.89041 866336
1.90041 1.47121e+06
1.91041 831807
1.92042 582937
1.93042 181560
1.94042 196730
1.95042 1.18957e+06
1.96042 2.15648e+06
1.97043 2.59102e+06
1.98043 1.31365e+06
1.99043 1.36176e+06
2.00043 917438
2.01044 0.0606198
2.02044 752240
2.03044 413140
2.04044 1.62175e+06
2.05044 392737
2.06045 458769
2.07045 0.0152045
2.08045 570706
2.09045 282771
2.10046 965731
2.11046 1.01682e+06
2.12046 405927
2.13046 1.65231e+06
2.14046 871011
2.15047 20277.9
2.16047 1.91063e+06
2.17047 349602
2.18047 665121
2.19047 5100.4
2.20048 156115
2.21048 0.0194305
2.22048 373771
2.23048 708101
2.24049 425263
2.25049 299975
2.26049 220888
2.27049 4.3538e+06
2.28049 2.31418e+06
2.2905 1.38289e+06
2.3005 1.21031e+06
2.3105 980154
2.3205 644561
2.33051 913757
2.34051 1.58964e+06
2.35051 1.21631e+06
2.36051 775962
2.37051 687737
2.38052 1.15177e+08
2.39052 1.3803e+06
2.40052 1.19669e+10
2.41052 1.16171e+06
2.42052 1.57185e+06
2.43053 1.17588e+06
2.44053 975920
2.45053 1.28578e+06
2.46053 1.45871e+06
2.47054 795718
2.48054 1.63598e+06
2.49054 576873
2.50054 787746
2.51054 511072
2.52055 742774
2.53055 592034
2.54055 1.45226e+06
2.55055 1.13305e+06
2.56055 763472
2.57056 456823
2.58056 1.2825e+06
2.59056 1.8383e+06
2.60056 397922
2.61057 722135
2.62057 356614
2.63057 611492
2.64057 1.52217e+06
2.65057 539408
2.66058 924845
2.67058 902871
2.68058 1.55458e+06
2.69058 420828
2.70059 1.10065e+06
2.71059 1.02889e+06
2.72059 853452
2.73059 1.0087e+06
2.74059 1.72557e+06
2.7506 251457
2.7606 1.71735e+06
2.7706 1.31291e+06
2.7806 695903
2.7906 2.23004e+06
2.80061 643429
2.81061 780174
2.82061 1.18634e+06
2.83061 867756
2.84062 639692
2.85062 1.03635e+06
2.85712 0.0